Folder: DEM2018/Texture/XRD/Input

Note: Texture/XRD/Readme
DEM postprocessing

1) Particle model is approximated by spline curves
2) Particle set data are converted to an image
3) Useful operations such as 2D FFT and local density estimation
 are made available for the texture analysis of meso-scale DEM clay model.

File: x240.dat
# time [pico sec]
960
# dry density [g/cm^3], porosity [%]
1.393941 43.5194
#Xa[1:2]
0.000000e+00 0.000000e+00
#Wd[1:4]
75.2 75.2 0.0000000000000000e+00 0.0000000000000000e+00
#np
3194
# irev[1:2] x1   x2    v1   v2
0 0 15.005 39.205 0.186743 0.132333 1.77 1.77
0 0 19.627 31.8693 -0.0947814 0.0899068 1.53 0.93
0 0 28.3696 43.8875 -0.0794145 0.156908 1.14 1.11
0 0 46.4276 65.2208 -0.0446935 0.0838353 1.77 1.77
0 0 52.5956 50.8682 -0.14389 -0.0257464 1.08 1.77
0 0 65.3231 52.8348 0.0551725 -0.0596075 1.02 0.99
0 0 71.8511 14.022 0.145622 0.140996 1.47 1.38
0 0 74.54 22.1342 0.117035 -0.179771 1.56 1.44
1 0 8.48768 33.7199 0.152531 -0.253303 1.65 1.77
0 0 20.5119 41.9203 0.0684839 -0.168204 1.71 1.74
0 0 33.099 51.6778 0.118799 -0.192159 1.74 1.71
1 0 1.59569 60.4627 -0.368297 -0.0521804 1.62 1.68
0 0 65.0117 67.0245 -0.079926 0.0114283 1.56 1.74
0 0 17.1521 25.1882 0.122362 0.109768 1.74 1.77
0 0 19.7305 11.2152 0.0146937 0.0133668 1.11 1.77
0 0 7.17455 16.1712 0.0746073 0.0995422 1.14 1.44
1 0 13.0773 7.38849 -0.0620475 -0.164407 0.96 1.11
0 0 73.5057 9.24531 -0.127724 0.272592 1.23 1.77
0 0 26.7097 58.2601 0.0301976 -0.0319052 1.17 1.71
0 0 42.0138 61.1249 0.0532301 0.0845013 1.14 1.17
0 0 51.8864 49.3612 0.0424914 0.0534118 1.32 1.38
0 0 51.9159 28.2115 -0.0629861 0.173398 1.71 1.23
0 0 39.3304 36.6406 0.169869 0.0561951 1.77 1.23
0 -1 56.8962 74.3343 -0.0617513 0.03454 1.77 1.02
0 0 60.8481 14.3247 -0.0130033 -0.0829198 1.77 1.11
0 0 46.257 16.2712 -0.12509 0.173919 1.74 1.44
0 0 66.3004 58.5909 0.0741017 -0.170435 1.53 1.17
0 0 74.7605 60.2389 -0.115739 -0.0999344 0.93 1.68
0 0 73.9609 45.1478 0.0535638 -0.129103 1.77 1.77
0 0 44.2321 9.12044 -0.00249519 0.0187519 1.59 0.93
0 0 28.9167 5.35715 -0.0923182 0.371506 1.38 1.29
0 0 41.3978 65.6971 -0.0156892 0.260991 1.77 1.32
0 1 38.655 3.83525 -0.0172137 0.184983 1.71 1.29
0 0 43.94 38.6833 0.294127 0.0514135 1.77 1.77
0 0 57.8586 31.8536 -0.0486933 -0.0802717 1.71 1.74
0 0 73.322 28.8185 0.0965239 -0.434322 1.74 1.74
0 0 61.7046 40.0981 -0.00845243 -0.156162 1.74 1.56
0 0 71.2438 52.3718 0.314484 -0.105302 1.77 1.62
0 0 72.0023 61.8094 0.0929397 -0.0201936 1.53 1.77
0 0 23.3185 58.6836 0.169464 -0.0596928 1.41 1.71
0 0 36.9387 64.8497 0.108266 0.0300214 1.56 0.93
0 0 50.4696 14.0181 0.068128 0.342134 1.56 0.93
0 0 34.8705 11.7172 0.116034 -0.177026 1.77 1.11
0 0 27.2254 18.9748 -0.318049 -0.0728638 1.77 1.11
0 0 12.2107 58.844 -0.12249 -0.0761184 1.77 1.23
0 0 6.44761 73.2542 0.0389501 0.178325 1.77 1.38
0 0 21.5176 63.6648 0.0879678 0.0811018 1.77 1.68
0 0 11.4436 68.5507 -0.210135 0.0160414 1.74 1.29
0 0 57.4646 56.1383 -0.0454243 0.0188388 1.77 1.2
0 0 61.5136 71.2898 -0.0359337 -0.0116852 1.74 1.47
0 0 70.5701 73.3492 0.147499 -0.0476518 1.71 1.47
0 0 35.8096 67.4558 -0.14026 0.0168117 1.26 0.93
0 0 24.8651 71.3504 0.0733031 -0.0632226 1.77 1.35
0 0 24.2715 47.9726 0.0543145 0.0879281 1.74 0.99
0 0 26.5907 55.8791 -0.136233 0.0780139 1.32 1.14
0 0 12.552 49.3112 -0.0711602 0.0641671 1.41 0.96
0 0 7.65114 9.13508 -0.00321338 0.0185657 1.5 1.23
0 0 21.5303 8.59219 0.0879054 0.0351723 1.74 1.17
0 0 48.7462 45.556 -0.0967726 0.0590013 1.14 0.93
0 0 38.9389 56.6077 -0.0827743 -0.083282 1.74 1.11
0 0 28.2958 45.4232 -0.162283 0.0689471 1.02 1.77
1 0 6.39506 31.7128 -0.173983 -0.0704878 1.53 1.71
0 0 69.8042 23.3168 -0.0150982 -0.372538 1.44 1.56
0 0 54.1937 26.1596 -0.0942657 -0.143417 1.71 1.05
0 0 65.3424 22.2628 -0.00483518 -0.30827 1.08 1.44
0 0 49.5435 23.6964 0.0142221 -0.397047 0.96 1.08
0 0 35.1612 23.3164 -0.0840032 0.0299163 1.77 1.38
-1 0 67.8988 36.9761 0.12127 -0.191064 1.77 1.77
-1 0 74.6364 50.6997 -0.280087 -0.0324712 1.62 1.77
0 0 44.4235 48.7744 0.102365 0.0488007 1.02 1.23
0 0 57.9978 42.1202 -0.0939941 0.0629524 1.23 0.93
0 0 67.5433 53.4138 -0.119409 -0.116623 1.74 0.96
0 0 39.0025 19.3166 -0.0590515 0.18431 1.77 1.14
0 0 31.9053 31.9397 -0.00780432 0.088904 1.74 1.74
0 0 20.8276 31.1104 -0.337936 0.0915156 1.71 0.93
0 0 29.8312 43.0572 -0.0528438 0.135716 1.77 1.77
0 0 32.3233 13.4685 -0.23569 0.0947096 1.77 1.77
0 0 26.2857 27.165 0.167833 0.125491 1.77 1.74
0 0 33.4605 35.8199 -0.011242 0.0220005 1.77 1.77
0 1 42.584 1.67181 -0.0823978 -0.107071 1.77 1.77
0 0 55.4258 69.7044 0.129322 0.0687209 1.14 1.68
0 1 62.2911 8.56944 0.39107 -0.0341903 1.77 1.77
0 0 10.6151 16.4429 0.26907 0.394989 1.68 1.77
-1 0 71.4812 15.5836 -0.0114485 -0.12928 1.74 1.77
0 0 4.6402 22.302 -0.11651 -0.112673 1.77 1.77
0 0 41.277 45.4265 -0.20887 0.0477884 1.65 1.29
0 0 54.4633 37.285 -0.0873824 -0.0051086 1.77 0.99
0 0 30.745 13.2153 -0.00786015 -0.0539529 1.71 1.29
0 0 24.4965 26.8452 -0.189399 0.0471329 1.77 1.2
0 0 30.5666 39.3586 -0.176719 0.173934 1.77 1.59
0 0 15.9774 2.00138 0.162179 -0.278424 1.23 1.77
0 0 1.38069 4.94487 0.177881 -0.111372 1.77 1.77
0 0 18.1485 56.1867 -0.153598 0.354316 1.77 1.29
0 0 7.45155 65.0179 0.294943 0.086459 1.77 1.35
-1 1 74.3004 2.82115 0.0159425 -0.0726644 1.77 1.77
0 0 64.5629 64.091 0.242463 -0.400101 1.77 1.47
0 0 59.2059 50.8452 -0.0423884 -0.0522976 1.68 1.74
0 0 17.6003 13.7936 -0.0432467 -0.0115346 1.77 1.2
0 0 11.8424 26.942 -0.102207 0.0283142 1.77 1.11
0 0 15.862 15.1851 0.0106675 0.158496 1.68 1.77
0 0 8.93234 28.3579 -0.239753 -0.0484825 1.77 1.2
0 0 4.05765 30.7076 0.1251 -0.0519406 1.44 1.14
0 0 55.427 19.3861 -0.0211294 -0.101251 1.77 1.59
0 0 39.6058 17.7892 -0.153682 -0.00650538 1.68 1.14
0 0 43.754 61.3937 0.123744 0.296269 0.93 1.23
0 0 28.3576 60.9085 -0.0989915 0.0805202 1.35 1.77
0 0 16.2038 51.0052 0.143859 -0.141432 1.77 1.74
0 0 2.28356 42.1486 0.0288041 -0.0840626 1.74 1.74
0 0 17.0004 45.5548 -0.0450538 0.150257 1.68 1.68
1 -1 13.5199 55.4018 0.15541 0.120336 1.56 0.93
1 -1 5.37075 67.1263 0.158933 -0.0718499 1.77 1.5
0 0 70.279 3.73939 0.164098 0.133026 1.56 1.56
0 0 38.899 67.6177 -0.0199206 0.138662 1.65 1.71
0 1 38.4216 5.46116 0.0768255 0.0304874 1.56 1.2
0 1 53.5727 7.70131 0.175371 0.084557 1.74 1.74
0 0 24.0519 25.1061 0.0341173 0.0603834 1.77 0.96
0 0 26.7585 38.7349 -0.165904 0.00664729 1.74 0.93
0 0 12.4926 9.40188 0.0125753 -0.0513664 0.93 1.59
0 0 22.8977 16.9534 -0.0249475 0.0457418 0.96 0.96
0 0 14.4024 0.327367 0.0809364 -0.17123 1.44 1.23
0 0 26.1122 9.02956 0.3444 0.0364343 1.77 1.77
0 0 22.6046 24.0145 -0.0903326 -0.0906768 1.77 1.2
0 0 52.0376 41.3418 -0.0382785 -0.0554013 1.68 1.35
0 0 65.9013 46.1469 0.154719 -0.204545 1.71 1.23
0 0 58.0276 9.37964 -0.0620672 -0.0922628 1.65 0.99
0 0 46.0619 11.9626 -0.00994796 -0.126698 1.77 0.99
0 0 54.3954 24.6964 -0.125789 -0.258265 1.05 0.96
0 0 39.2837 22.254 -0.136083 -0.125185 1.77 1.77
0 0 31.0378 34.6178 -0.12546 -0.123767 1.74 1.77
0 0 45.1663 68.5813 -0.156027 -0.0239952 1.59 1.53
0 0 51.9955 68.728 0.15768 0.0243547 1.59 1.77
-1 0 47.2906 36.9608 0.147619 0.315847 1.77 0.93
-1 0 62.6034 32.6406 0.168407 0.0843685 1.77 1.41
0 0 0.976268 34.5046 0.0119315 -0.108439 1.08 0.99
0 0 12.808 53.9913 -0.0376869 -0.111654 1.35 0.93
0 0 4.05979 65.2036 0.292159 0.090226 1.71 1.47
0 0 1.72018 6.9799 0.0306634 -0.123547 1.77 1.77
0 0 16.3624 3.86909 0.106774 -0.0784492 1.59 1.62
0 0 70.472 26.782 -0.235867 -0.271194 1.77 1.74
0 0 55.0547 30.7506 -0.18643 -0.223017 1.56 1.74
0 0 41.9875 38.651 0.0759562 -0.0715159 1.77 1.77
0 0 61.0455 22.3738 0.0484387 0.0478127 0.93 1.23
0 0 71.8135 12.3719 0.230049 -0.00823118 1.02 1.35
0 0 48.3246 41.3661 -0.0519132 0.161134 1.77 0.93
0 0 63.3871 39.0207 -0.131578 -0.0653683 1.68 1.23
0 0 73.1075 51.4702 0.213024 0.0284738 1.77 1.5
0 0 45.5263 57.2454 -0.188088 -0.176135 1.59 1.68
0 0 55.1013 45.1276 0.0529829 0.231705 1.53 1.77
0 0 39.4646 47.5497 0.0244853 -0.0749749 1.77 1.77
0 0 49.9957 37.2024 -0.158993 -0.174989 1.77 0.93
0 0 65.3123 33.1821 -0.0472436 -0.245569 1.62 1.26
0 0 37.9074 32.7788 0.0919595 0.115143 1.53 1.38
0 0 42.6706 30.5825 0.0871871 0.177337 1.35 0.99
0 0 35.1827 44.025 -0.0438432 0.143609 1.77 1.26
0 0 10.405 26.478 -0.418253 -0.00233954 1.77 1.05
0 0 5.48093 36.3393 0.068014 -0.192352 1.68 1.77
-1 0 70.2155 24.9868 0.101264 -0.135071 1.74 1.74
0 0 61.1389 49.6986 -0.074936 0.0918656 1.14 1.35
0 0 54.014 60.5746 0.140855 -0.0111353 1.77 1.2
0 0 23.0305 62.2683 0.0671419 0.275702 1.59 1.53
0 0 10.7283 64.6457 0.0642324 -0.0171838 1.77 1.02
0 0 27.1714 54.0152 0.129533 -0.122989 1.02 1.08
0 0 12.7733 47.941 -0.0984576 0.0647909 0.93 1.11
-1 0 73.988 42.6436 0.154775 -0.195942 1.29 1.62
0 0 59.719 62.8244 0.235213 -0.0435122 1.77 1.74
0 1 66.3779 0.780476 0.109069 -0.224928 1.77 1.77
1 0 7.25556 53.6978 0.0545159 -0.159177 1.77 1.5
1 0 1.00392 68.0485 -0.326846 -0.331209 1.77 1.59
0 1 65.7421 4.46408 0.191606 0.105118 1.38 1.29
0 0 51.8676 57.9713 0.100399 0.0394837 1.59 1.17
0 0 59.1214 71.8244 -0.0963921 0.109593 1.56 0.93
0 0 56.9385 3.61968 0.0407521 -0.156037 1.77 0.93
0 0 54.9183 15.787 0.113704 -0.222069 1.77 1.23
0 0 39.0226 14.5298 0.0801399 -0.00977173 1.74 1.26
0 0 54.5342 20.8156 0.0148462 0.0928631 1.77 1.71
0 0 66.6197 13.7095 -0.0401144 -0.199302 1.65 1.59
1 0 6.21827 12.9182 0.395924 0.0228928 1.74 1.74
0 0 55.4384 28.8237 -0.0722476 -0.283175 1.77 1.74
0 0 41.4959 35.7222 0.14882 0.14243 1.77 1.68
0 0 54.3986 43.4905 -0.105052 -0.12516 1.41 1.77
0 0 44.7666 55.4924 -0.0355794 0.0587584 1.77 1.74
0 1 47.8878 7.2835 0.264577 0.0282863 0.99 1.62
0 1 32.5508 4.49656 0.240488 -0.323875 1.2 1.59
0 0 23.4049 68.3875 -0.0849385 0.0378589 1.71 1.65
0 0 19.9597 16.4249 0.00171335 -0.0214367 1.71 1.41
0 0 13.9094 29.7999 0.234125 -0.0862668 1.77 1.65
0 0 45.4828 63.5352 -0.153288 -0.0314738 1.77 1.77
0 1 38.1889 1.51477 0.0953112 0.0501227 1.77 1.77
0 -1 54.3075 71.2593 -0.171216 0.0212296 1.62 0.99
0 0 56.58 11.2034 0.0377229 0.00413396 1.59 1.08
0 0 41.6583 10.4941 0.0382376 -0.121866 1.65 0.99
0 0 9.05831 41.8915 -0.102632 0.088053 1.77 1.32
0 0 23.9785 45.9462 -0.217671 0.337992 1.71 1.17
0 0 31.55 57.936 -0.166998 0.0694865 1.74 1.68
0 0 6.26301 46.9056 -0.095348 -0.0730642 1.08 1.11
0 0 21.6004 49.4781 -0.0246166 0.145748 0.93 0.93
0 0 1.56755 38.303 -0.118739 -0.315098 0.93 1.74
-1 0 65.6657 36.9551 0.297117 -0.00645074 1.29 1.77
0 0 13.9873 64.672 0.287112 -0.0745944 1.77 1.77
0 0 20.932 74.3975 0.188654 -0.122419 1.62 1.77
0 1 28.399 3.78452 0.185208 0.137684 1.77 1.77
#number of sheets
80
#natural spring lengths9.9999999999998535e-01 2
1 2
1 2
1 2
1 2
1 2
1 2
1 2
1 2
1 2
1 2
1 2
1 2
1 2
1 2
1 2
1 2
1 2
1 2
1 2
1 2
1 2
1 2
1 2
1 2
1 2
1 2
1 2
1 2
1 2
1 2
1 2
1 2
1 2
1 2
1 2
1 2
1 2
1 2
1 2
1 2
1 2
1 2
1 2
1 2
1 2
1 2
1 2
1 2
1 2
1 2
1 2
1 2
1 2
1 2
1 2
1 2
1 2
1 2
1 2
1 2
1 2
1 2
1 2
1 2
1 2
1 2
1 2
1 2
1 2
1 2
1 2
1 2
1 2
1 2
1 2
1 2
1 2
1 2
1 2

File: x250.dat
# time [pico sec]
1000
# dry density [g/cm^3], porosity [%]
1.608733 34.8163
#Xa[1:2]
0.000000e+00 0.000000e+00
#Wd[1:4]
70 70 0.0000000000000000e+00 0.0000000000000000e+00
#np
3194
# irev[1:2] x1   x2    v1   v2
0 0 12.6283 36.2156 0.27087 -0.130115 1.77 1.77
0 0 15.5938 30.5471 -0.261905 -0.0165948 1.62 0.96
0 0 24.7053 42.4299 0.230231 -0.337252 1.08 1.14
0 0 42.8228 60.8039 0.020841 -0.016934 1.77 1.74
0 0 47.9393 46.8994 -0.30517 -0.0835143 1.02 1.5
0 0 58.9921 48.3724 0.358581 0.133293 1.17 1.02
1 0 0.705184 13.9466 -0.131273 0.207559 1.53 1.5
0 0 68.5253 19.3596 0.0726259 -0.320071 1.68 1.53
1 0 6.84978 30.4351 -0.459876 0.106563 1.5 1.74
0 0 16.5638 39.834 -0.0900703 0.155486 1.77 1.65
0 0 29.4461 49.1712 0.325009 -0.212239 1.74 1.77
1 0 0.345809 57.1357 0.329455 -0.200238 1.62 1.77
0 0 60.8137 64.5577 0.232701 -0.353637 1.53 1.74
0 0 15.1971 23.1891 -0.0454432 0.530574 1.77 1.77
0 0 22.1638 10.2754 0.127886 -0.13283 0.96 1.77
0 0 10.9394 15.3078 0.214455 0.0349433 1.23 1.35
1 0 13.0598 8.57054 0.000565633 0.0567704 0.93 1.17
0 0 68.1279 8.63216 -0.199609 0.116461 1.2 1.74
0 0 23.2822 54.9872 -0.0422724 0.00589351 1.11 1.77
0 0 37.7045 57.6632 -0.00422858 0.0321144 1.2 1.32
0 0 46.5833 46.5478 0.109805 -0.0741311 1.35 1.35
0 0 47.748 24.9741 -0.0842221 0.0446774 1.68 1.11
0 0 35.5574 33.8181 -0.11306 -0.0923917 1.74 1.05
0 -1 51.6231 67.9071 -0.0724461 0.0848247 1.77 1.02
0 0 57.9468 9.92409 -0.0323383 0.106061 1.74 0.96
0 0 43.7422 13.9936 -0.0515948 0.38777 1.77 1.47
0 0 62.8607 56.1573 0.381147 0.180808 1.47 1.26
0 0 67.9705 57.7021 -0.483672 0.0785928 1.02 1.77
0 0 66.9858 42.4785 0.318992 -0.270204 1.77 1.77
0 0 43.5777 7.14368 0.231483 0.0983021 1.5 0.96
0 0 28.6662 4.86762 0.153485 -0.0979138 1.38 1.38
0 0 38.7806 63.8278 -0.162917 0.0186087 1.77 1.44
0 1 40.4713 4.0973 0.205773 -0.287534 1.62 1.17
0 0 39.1314 36.7163 0.0293748 -0.14022 1.74 1.77
0 0 52.0424 28.7093 0.0269226 -0.0118913 1.74 1.77
0 0 67.3123 24.9121 0.0751992 0.37813 1.77 1.77
0 0 57.4223 36.5242 0.0981076 -0.113891 1.65 1.53
0 0 64.6552 50.6066 -0.0869497 0.125231 1.77 1.68
0 0 66.0799 58.3356 0.0700083 -0.154444 1.68 1.77
0 0 22.0584 58.3983 0.430464 -0.241823 1.5 1.59
0 0 36.0676 60.9715 0.630444 -0.00891255 1.59 1.2
0 0 48.4878 11.6052 -0.0766695 -0.1089 1.62 0.96
0 0 32.7705 11.1694 -0.0767141 0.521108 1.74 1.14
0 0 23.0933 22.3016 0.0863114 0.224063 1.74 1.14
0 0 12.463 55.4255 -0.0211033 -0.0109045 1.77 1.23
0 0 9.09275 68.2061 0.387552 0.238835 1.77 1.38
0 0 19.7761 65.2342 0.272379 -0.968585 1.77 1.77
0 0 11.795 62.9602 0.0308589 0.184336 1.77 1.23
0 0 53.8657 52.9525 -0.274504 0.247521 1.77 1.35
0 0 59.1703 67.3917 0.122441 -0.400081 1.77 1.59
1 0 0.599741 66.2654 0.442524 0.509069 1.62 1.59
0 0 34.6053 61.277 0.151015 -0.303334 1.32 0.96
0 0 27.8953 63.7964 -0.0772447 -0.460537 1.77 1.41
0 0 20.6425 45.9423 -0.0315451 0.113177 1.74 0.93
0 0 22.6007 51.9769 0.00226865 0.18155 1.26 0.96
0 0 8.17098 45.8324 -0.128109 -0.160711 1.44 0.99
0 0 8.65792 9.5325 0.0680666 0.640912 1.59 1.35
0 0 22.4739 6.73373 0.146609 -0.125452 1.71 1.11
0 0 44.9119 41.4469 -0.069476 -0.131941 0.93 0.93
0 0 36.5791 52.853 -0.0339119 0.215001 1.77 1.02
0 0 24.5311 43.5133 0.0474903 0.0198504 1.05 1.74
1 0 5.52381 30.6629 0.128682 -0.250182 1.38 1.77
0 0 66.2009 20.8974 0.0674514 -0.255241 1.26 1.56
0 0 50.7197 22.2359 0.184628 0.691178 1.74 0.96
0 0 60.6372 19.0421 0.065677 -0.205769 0.99 1.26
0 0 44.8371 20.8843 -0.286096 0.436093 0.96 0.93
0 0 31.8635 24.3781 0.209117 0.230666 1.77 1.35
-1 0 61.7326 33.1459 -0.378452 0.0732151 1.77 1.77
-1 0 67.7336 47.6336 -0.166345 0.222916 1.77 1.74
0 0 40.9467 45.0386 -0.0847061 -0.348866 0.93 1.2
0 0 53.9895 37.6001 -0.231044 0.181718 1.14 0.96
0 0 61.9324 51.0184 -0.15421 0.183661 1.71 0.96
0 0 34.724 18.3647 0.235172 0.160934 1.77 1.02
0 0 27.3125 32.0836 -0.120741 -0.111497 1.74 1.68
0 0 17.6737 28.8883 0.572777 0.160856 1.62 0.93
0 0 25.0273 41.1117 0.135833 -0.373971 1.65 1.71
0 0 32.1632 13.9462 -0.30091 -0.418495 1.77 1.77
0 0 23.7498 27.0296 -0.00418524 -0.175927 1.77 1.77
0 0 29.4269 34.847 0.0617349 0.404209 1.77 1.77
0 1 40.2376 1.27611 -0.0753617 -0.0205626 1.74 1.77
0 0 51.2684 64.338 0.289856 -0.282454 1.26 1.71
0 1 60.6833 6.22399 -0.592655 -0.214396 1.77 1.77
0 0 14.7286 13.7313 0.0261824 -0.23596 1.71 1.77
0 0 0.856918 15.7944 0.0467794 -0.0155619 1.77 1.77
0 0 3.50581 18.4598 -0.0470037 -0.0691796 1.71 1.77
0 0 37.6712 42.6156 -0.0690059 -0.11795 1.65 1.2
0 0 50.2608 33.4166 0.273012 0.302923 1.77 0.99
0 0 29.172 16.4659 0.464423 0.0761446 1.77 1.29
0 0 20.1681 29.2245 -0.0213366 0.140074 1.74 1.26
0 0 29.8197 39.3715 0.0638801 -0.0838591 1.77 1.53
0 0 19.2896 1.76604 0.316852 -0.197009 1.38 1.77
0 0 5.3431 5.61858 0.0370518 0.00277696 1.77 1.77
0 0 17.2833 54.7626 0.0834429 -0.649348 1.74 1.23
0 0 7.09871 59.9263 0.0737381 0.035221 1.77 1.29
0 1 2.13107 3.42745 0.0833457 0.01958 1.77 1.77
0 0 60.2056 61.0104 0.539147 0.0937296 1.65 1.44
0 0 54.7456 46.4897 0.0345868 0.071472 1.71 1.77
0 0 18.9123 13.5222 0.096624 0.0427187 1.77 1.17
0 0 10.1823 25.5946 -0.200816 -0.0421896 1.77 1.17
0 0 16.4189 14.2173 0.00266 0.0906603 1.71 1.71
0 0 7.63735 25.9853 -0.0799288 -0.0271186 1.77 1.08
0 0 3.19125 27.579 -0.175229 -0.166439 1.5 1.11
0 0 49.9111 15.7467 -0.153624 0.0898081 1.77 1.59
0 0 34.0922 17.0587 -0.147234 -0.0353272 1.71 1.02
0 0 38.8071 58.6979 0.173124 -0.23318 0.99 1.11
0 0 23.8063 57.6652 0.313505 -0.0954334 1.5 1.74
0 0 11.838 47.5904 0.0904541 -0.249137 1.74 1.74
0 0 0.0437514 39.4183 -0.10376 0.0410134 1.77 1.68
0 0 14.4154 43.3154 -0.26927 0.232104 1.59 1.59
1 -1 12.9043 52.7586 -0.0263988 0.48622 1.53 0.93
1 -1 5.58102 61.5345 -0.41106 0.102406 1.77 1.44
0 0 68.3375 3.72129 -0.109463 0.0763031 1.56 1.59
0 0 36.3665 64.2842 -0.17815 -0.19083 1.56 1.56
0 1 38.9108 5.35749 -0.102356 0.148713 1.44 1.02
0 1 52.9524 8.03921 -0.0692897 -0.226508 1.71 1.74
0 0 19.2903 27.996 -0.0159539 0.070226 1.77 1.02
0 0 26.4429 39.992 0.285444 0.158951 1.74 0.93
0 0 15.8168 7.51278 0.0194202 -0.411657 0.93 1.53
0 0 21.8216 16.9324 -0.158696 -0.0992848 1.14 0.96
0 -1 16.5521 69.3628 0.243317 0.259107 1.5 1.35
0 0 28.2475 8.75582 -0.234387 0.11814 1.77 1.77
0 0 20.5561 22.5383 0.241993 0.47578 1.68 1.23
0 0 47.1773 37.5989 0.0876108 0.111304 1.71 1.41
0 0 60.0976 42.4979 0.0558437 0.0137912 1.77 1.2
0 0 56.4225 5.4154 0.632335 -0.484338 1.68 0.93
0 0 44.2001 9.83911 0.0653891 0.0350797 1.74 0.96
0 0 49.5168 21.292 -0.0949951 -0.0212377 1.05 1.05
0 0 34.7482 22.3049 0.313528 0.548783 1.77 1.77
0 0 25.5304 34.0635 -0.226681 -0.192299 1.74 1.77
0 0 43.0018 63.4478 -0.361871 -0.213631 1.77 1.53
0 0 48.3941 61.0503 -0.0416665 -0.663311 1.62 1.77
-1 0 41.8417 34.5422 0.163684 0.0137816 1.71 0.96
-1 0 56.6487 28.9341 -0.118763 -0.524131 1.77 1.41
-1 0 69.5519 30.7641 -0.26823 -0.0531633 1.08 1.02
0 0 12.5203 51.3374 -0.0880424 -0.02452 1.53 0.96
0 0 3.74184 59.3306 -0.143586 0.266227 1.77 1.35
0 0 3.20761 6.69867 0.0973945 -0.373068 1.77 1.77
0 0 17.1954 2.87615 0.115665 -0.472369 1.77 1.77
0 0 64.5226 23.2359 0.206691 -0.480246 1.77 1.77
0 0 49.2575 27.6967 0.0590342 -0.0174083 1.74 1.77
0 0 37.6857 37.0446 0.225467 -0.0791991 1.77 1.77
0 0 57.0228 19.1542 -0.169342 0.0133269 0.96 1.23
0 0 69.9497 12.2453 -0.153778 -0.0821175 1.02 1.29
0 0 43.2485 38.3516 -0.136307 -0.260542 1.74 0.93
0 0 57.7679 34.5378 0.0525001 0.0160645 1.71 1.38
0 0 66.0635 48.0872 0.102977 -0.116696 1.77 1.74
0 0 42.1988 54.5663 -0.196159 -0.31172 1.56 1.74
0 0 49.4556 40.8829 -0.161889 -0.36289 1.44 1.74
0 0 35.4171 44.584 -0.27809 -0.0718214 1.77 1.77
0 0 46.0615 33.354 0.0626889 0.39255 1.77 0.93
0 0 61.2571 28.7225 -0.100399 -0.195574 1.59 1.38
0 0 33.6902 31.5754 -0.258997 -0.0161397 1.44 1.32
0 0 38.3159 27.4796 0.0288996 0.0170969 1.41 0.99
0 0 31.3665 41.559 0.0131055 0.201611 1.77 1.35
0 0 8.79675 25.1998 -0.0985639 -0.147638 1.77 1.08
0 0 3.24282 32.2695 0.199672 -0.010544 1.56 1.71
-1 0 63.1382 21.5804 -0.0444725 0.328171 1.77 1.74
0 0 54.9229 44.6301 0.071388 -0.189092 1.11 1.41
0 0 52.3615 55.7138 0.169137 -0.543989 1.77 1.05
0 0 22.5783 62.0731 -0.158551 0.183646 1.56 1.53
0 0 10.0401 59.6902 -0.532867 -0.160284 1.77 1.14
0 0 22.8152 50.8016 -0.189402 0.0824063 1.14 1.08
0 0 8.4939 44.6299 -0.0914383 -0.168735 0.96 1.17
-1 0 66.1585 37.5463 -0.474238 0.31743 1.23 1.56
0 0 56.5695 56.0754 0.098271 -0.263969 1.74 1.77
0 0 63.6459 69.2184 0.116046 -0.164661 1.77 1.77
1 0 7.65659 48.9114 -0.253253 -0.559022 1.77 1.5
1 0 2.33213 61.5194 0.136786 -0.157914 1.77 1.59
0 1 64.6959 3.41205 0.197683 0.630943 1.5 1.29
0 0 48.9256 53.5633 0.00830476 -0.206373 1.5 1.23
0 0 55.2288 67.2662 -0.219521 0.194365 1.65 0.99
0 0 53.0334 0.77318 0.0217362 0.045037 1.71 1.05
0 0 53.2513 12.4229 0.133623 0.187818 1.74 1.32
0 0 37.39 13.3869 -0.0310356 0.0336531 1.77 1.11
0 0 50.7023 17.4541 -0.0442436 0.24911 1.74 1.77
0 0 63.9689 11.3297 0.320721 0.133117 1.65 1.68
1 0 9.42882 12.5785 -0.135417 -0.701631 1.74 1.77
0 0 48.4791 26.3236 -0.09651 -0.434187 1.77 1.62
0 0 36.3329 35.3036 0.0866552 0.211708 1.77 1.68
0 0 48.3473 39.684 -0.166929 -0.156114 1.41 1.77
0 0 40.9865 53.2394 -0.270613 -0.249601 1.74 1.77
0 1 47.4085 5.15368 -0.0754515 0.542985 1.2 1.68
0 1 32.1361 4.22804 0.0765491 0.102942 1.2 1.71
0 0 20.9755 63.6073 -0.396055 0.0909993 1.74 1.68
0 0 19.353 15.7706 0.399543 0.20268 1.65 1.38
0 0 12.0616 27.9356 0.402105 -0.0680582 1.77 1.71
0 0 42.2298 58.9068 -0.0632004 -0.221362 1.77 1.77
0 1 37.2927 2.04286 0.0833368 0.225203 1.77 1.77
0 -1 49.2976 64.5291 0.527025 0.240198 1.65 1.2
0 0 54.9243 7.37797 -0.205655 -0.068046 1.47 0.96
0 0 40.3199 9.11146 -0.125828 -0.69869 1.68 0.96
0 0 5.66146 39.2437 -0.322002 0.80372 1.77 1.32
0 0 20.2495 43.8936 -0.497697 0.354351 1.68 1.11
0 0 27.2301 55.4495 -0.307908 -0.171992 1.71 1.77
0 0 2.14032 43.5802 -0.132497 0.0289419 0.99 1.17
0 0 17.2854 46.5458 0.106709 0.478658 0.93 0.93
0 0 0.157247 35.4256 1.40166 -0.752111 1.02 1.77
-1 0 58.7931 31.539 0.277222 0.506683 1.23 1.77
0 0 13.1718 60.7248 0.127891 -0.0587331 1.77 1.77
0 0 24.179 69.4302 0.143393 0.130803 1.71 1.77
0 1 30.7043 5.20826 -0.33181 0.606557 1.68 1.68
#number of sheets
80
#natural spring lengths9.9999999999998535e-01 2
1 2
1 2
1 2
1 2
1 2
1 2
1 2
1 2
1 2
1 2
1 2
1 2
1 2
1 2
1 2
1 2
1 2
1 2
1 2
1 2
1 2
1 2
1 2
1 2
1 2
1 2
1 2
1 2
1 2
1 2
1 2
1 2
1 2
1 2
1 2
1 2
1 2
1 2
1 2
1 2
1 2
1 2
1 2
1 2
1 2
1 2
1 2
1 2
1 2
1 2
1 2
1 2
1 2
1 2
1 2
1 2
1 2
1 2
1 2
1 2
1 2
1 2
1 2
1 2
1 2
1 2
1 2
1 2
1 2
1 2
1 2
1 2
1 2
1 2
1 2
1 2
1 2
1 2
1 2